Folder: materials-characterization-data-analysis/data/example outputs/XRD

Note: README.md
# Materials Characterization Data Analysis (MCDA)
Python modules to analyze charecterization data.

File: 2Theta_Intensity_Data.csv
2Theta,Intensity
5.01,20
5.41,18
5.81,16
6.21,8
6.61,25
7.01,10
7.41,10
7.81,14
8.21,13
8.61,8
9.01,4
9.41,11
9.81,12
10.21,13
10.61,16
11.01,11
11.41,15
11.81,9
12.21,11
12.61,9
13.01,2
13.41,9
13.81,12
14.21,9
14.61,11
15.01,8
15.41,15
15.81,7
16.21,9
16.61,10
17.01,10
17.41,6
17.81,13
18.21,6
18.61,9
19.01,7
19.41,12
19.81,13
20.21,3
20.61,12
21.01,14
21.41,14
21.81,13
22.21,12
22.61,26
23.01,12
23.41,5
23.81,9
24.21,7
24.61,5
25.01,2
25.41,10
25.81,12
26.21,7
26.61,9
27.01,10
27.41,9
27.81,12
28.21,13
28.61,10
29.01,4
29.41,10
29.81,6
30.21,9
30.61,8
31.01,6
31.41,7
31.81,6
32.21,7
32.61,3
33.01,13
33.41,16
33.81,11
34.21,17
34.61,10
35.01,3
35.41,1
35.81,2
36.21,5
36.61,5
37.01,8
37.41,1
37.81,3
38.21,4
38.61,2
39.01,4
39.41,8
39.81,2
40.21,2
40.61,3
41.01,3
41.41,3
41.81,5
42.21,3
42.61,5
43.01,3
43.41,3
43.81,6
44.21,3
44.61,6
45.01,6
45.41,14
45.81,20
46.21,112
46.61,291
47.01,21
47.41,8
47.81,6
48.21,9
48.61,1
49.01,6
49.41,3
49.81,4
50.21,1
50.61,2
51.01,1
51.41,1
51.81,1
52.21,2
52.61,2
53.01,1
53.41,3
53.81,2
54.21,2
54.61,5
55.01,1
55.41,1
55.81,1
56.21,2
56.61,2
57.01,2
57.41,0
57.81,3
58.21,1
58.61,1
59.01,1
59.41,2
59.81,1
60.21,1
60.61,4
61.01,1
61.41,5
61.81,3
62.21,3
62.61,5
63.01,1
63.41,3
63.81,2
64.21,2
64.61,2
65.01,2
65.41,2
65.81,2
66.21,2
66.61,2
67.01,3
67.41,3
67.81,2
68.21,0
68.61,0
69.01,2
69.41,2
69.81,1
70.21,3
70.61,4
71.01,1
71.41,1
71.81,4
72.21,2
72.61,84
73.01,4
73.41,1
73.81,0
74.21,2
74.61,4
75.01,2
75.41,1
75.81,4
76.21,4
76.61,3
77.01,3
77.41,2
77.81,2
78.21,2
78.61,1
79.01,1
79.41,1
79.81,0
80.21,1
80.61,2
81.01,1
81.41,1
81.81,0
82.21,4
82.61,0
83.01,2
83.41,5
83.81,5
84.21,2
84.61,2
85.01,1
85.41,0
85.81,4
86.21,1
86.61,1
87.01,3
87.41,0
87.81,0
88.21,1
88.61,1
89.01,0
89.41,3
89.81,2
90.21,0
90.61,1
91.01,1
91.41,1
91.81,2
92.21,3
92.61,4
93.01,2
93.41,0
93.81,4
94.21,3
94.61,3
95.01,3
95.41,2
95.81,1
96.21,2
96.61,2
97.01,1
97.41,4
97.81,0
98.21,1
98.61,4
99.01,1
99.41,2
99.81,2
100.21,2
100.61,0
101.01,3
101.41,3
101.81,2
102.21,3
102.61,0
103.01,1
103.41,6
103.81,11
104.21,33374
104.61,10
105.01,6
105.41,1
105.81,4
106.21,1
106.61,2
107.01,0
107.41,0
107.81,1
108.21,2
108.61,2
109.01,1
109.41,1
109.81,2
110.21,2
110.61,2
111.01,1
111.41,0
111.81,2
112.21,4
112.61,1
113.01,2
113.41,1
113.81,1
114.21,0
114.61,1
115.01,0
115.41,0
115.81,1
116.21,1
116.61,1
117.01,2
117.41,2
117.81,0
118.21,2
118.61,2
119.01,2
119.41,4
119.81,2
119.99,2