Folder: materials-characterization-data-analysis/Example Data/XRD Data

Note: README.md
# Materials Characterization Data Analysis (MCDA)
Python modules to analyze charecterization data.

File: XRD4_MBE1-230331A-MS_33.9475 Omega_export.csv
Omega,Intensity
16.7288,16.4773
16.7338,14.7727
16.7388,15.9091
16.7438,18.75
16.7488,13.6364
16.7538,20.4545
16.7588,20.4545
16.7638,17.6136
16.7688,16.4773
16.7738,10.7955
16.7788,14.7727
16.7838,14.2045
16.7888,14.2045
16.7938,15.9091
16.7988,16.4773
16.8038,17.6136
16.8088,11.3636
16.8138,18.1818
16.8188,15.3409
16.8238,15.9091
16.8288,13.6364
16.8338,14.7727
16.8388,19.8864
16.8438,12.5
16.8488,23.2955
16.8538,11.9318
16.8588,17.6136
16.8638,14.7727
16.8688,22.1591
16.8738,18.75
16.8788,18.1818
16.8838,21.0227
16.8888,18.1818
16.8938,23.2955
16.8988,23.8636
16.9038,27.2727
16.9088,32.9545
16.9138,41.4773
16.9188,41.4773
16.9238,40.3409
16.9288,40.3409
16.9338,40.3409
16.9388,40.3409
16.9438,47.1591
16.9488,51.1364
16.9538,49.4318
16.9588,44.8864
16.9638,44.8864
16.9688,40.9091
16.9738,37.5
16.9788,38.6364
16.9838,26.7045
16.9888,34.6591
16.9938,31.25
16.9988,24.4318
17.0038,27.2727
17.0088,30.1136
17.0138,26.7045
17.0188,22.1591
17.0238,28.9773
17.0288,18.75
17.0338,26.7045
17.0388,20.4545
17.0438,17.6136
17.0488,27.2727
17.0538,12.5
17.0588,17.0455
17.0638,13.6364
17.0688,19.3182
17.0738,23.8636
17.0788,12.5
17.0838,17.6136
17.0888,13.6364
17.0938,13.6364
17.0988,13.6364
17.1038,15.3409
17.1088,15.9091
17.1138,17.0455
17.1188,14.7727
17.1238,10.2273
17.1288,17.6136
17.1338,14.7727
17.1388,20.4545
17.1438,10.2273
17.1488,15.3409
17.1538,19.3182
17.1588,14.7727
17.1638,15.9091
17.1688,15.9091
17.1738,9.65909
17.1788,15.9091
17.1838,11.9318
17.1888,17.0455
17.1938,14.2045
17.1988,17.0455
17.2038,14.2045
17.2088,11.9318
17.2138,11.3636
17.2188,13.6364

File: XRD4_MBE1-230331A-MS_Gonio Pixcel_export.csv
Theta2,Intensity
5.01,56.8182
5.41,51.1364
5.81,45.4545
6.21,22.7273
6.61,71.0227
7.01,28.4091
7.41,28.4091
7.81,39.7727
8.21,36.9318
8.61,22.7273
9.01,11.3636
9.41,31.25
9.81,34.0909
10.21,36.9318
10.61,45.4545
11.01,31.25
11.41,42.6136
11.81,25.5682
12.21,31.25
12.61,25.5682
13.01,5.68182
13.41,25.5682
13.81,34.0909
14.21,25.5682
14.61,31.25
15.01,22.7273
15.41,42.6136
15.81,19.8864
16.21,25.5682
16.61,28.4091
17.01,28.4091
17.41,17.0455
17.81,36.9318
18.21,17.0455
18.61,25.5682
19.01,19.8864
19.41,34.0909
19.81,36.9318
20.21,8.52273
20.61,34.0909
21.01,39.7727
21.41,39.7727
21.81,36.9318
22.21,34.0909
22.61,73.8636
23.01,34.0909
23.41,14.2045
23.81,25.5682
24.21,19.8864
24.61,14.2045
25.01,5.68182
25.41,28.4091
25.81,34.0909
26.21,19.8864
26.61,25.5682
27.01,28.4091
27.41,25.5682
27.81,34.0909
28.21,36.9318
28.61,28.4091
29.01,11.3636
29.41,28.4091
29.81,17.0455
30.21,25.5682
30.61,22.7273
31.01,17.0455
31.41,19.8864
31.81,17.0455
32.21,19.8864
32.61,8.52273
33.01,36.9318
33.41,45.4545
33.81,31.25
34.21,48.2955
34.61,28.4091
35.01,8.52273
35.41,2.84091
35.81,5.68182
36.21,14.2045
36.61,14.2045
37.01,22.7273
37.41,2.84091
37.81,8.52273
38.21,11.3636
38.61,5.68182
39.01,11.3636
39.41,22.7273
39.81,5.68182
40.21,5.68182
40.61,8.52273
41.01,8.52273
41.41,8.52273
41.81,14.2045
42.21,8.52273
42.61,14.2045
43.01,8.52273
43.41,8.52273
43.81,17.0455
44.21,8.52273
44.61,17.0455
45.01,17.0455
45.41,39.7727
45.81,56.8182
46.21,318.182
46.61,826.705
47.01,59.6591
47.41,22.7273
47.81,17.0455
48.21,25.5682
48.61,2.84091
49.01,17.0455
49.41,8.52273
49.81,11.3636
50.21,2.84091
50.61,5.68182
51.01,2.84091
51.41,2.84091
51.81,2.84091
52.21,5.68182
52.61,5.68182
53.01,2.84091
53.41,8.52273
53.81,5.68182
54.21,5.68182
54.61,14.2045
55.01,2.84091
55.41,2.84091
55.81,2.84091
56.21,5.68182
56.61,5.68182
57.01,5.68182
57.41,0
57.81,8.52273
58.21,2.84091
58.61,2.84091
59.01,2.84091
59.41,5.68182
59.81,2.84091
60.21,2.84091
60.61,11.3636
61.01,2.84091
61.41,14.2045
61.81,8.52273
62.21,8.52273
62.61,14.2045
63.01,2.84091
63.41,8.52273
63.81,5.68182
64.21,5.68182
64.61,5.68182
65.01,5.68182
65.41,5.68182
65.81,5.68182
66.21,5.68182
66.61,5.68182
67.01,8.52273
67.41,8.52273
67.81,5.68182
68.21,0
68.61,0
69.01,5.68182
69.41,5.68182
69.81,2.84091
70.21,8.52273
70.61,11.3636
71.01,2.84091
71.41,2.84091
71.81,11.3636
72.21,5.68182
72.61,238.636
73.01,11.3636
73.41,2.84091
73.81,0
74.21,5.68182
74.61,11.3636
75.01,5.68182
75.41,2.84091
75.81,11.3636
76.21,11.3636
76.61,8.52273
77.01,8.52273
77.41,5.68182
77.81,5.68182
78.21,5.68182
78.61,2.84091
79.01,2.84091
79.41,2.84091
79.81,0
80.21,2.84091
80.61,5.68182
81.01,2.84091
81.41,2.84091
81.81,0
82.21,11.3636
82.61,0
83.01,5.68182
83.41,14.2045
83.81,14.2045
84.21,5.68182
84.61,5.68182
85.01,2.84091
85.41,0
85.81,11.3636
86.21,2.84091
86.61,2.84091
87.01,8.52273
87.41,0
87.81,0
88.21,2.84091
88.61,2.84091
89.01,0
89.41,8.52273
89.81,5.68182
90.21,0
90.61,2.84091
91.01,2.84091
91.41,2.84091
91.81,5.68182
92.21,8.52273
92.61,11.3636
93.01,5.68182
93.41,0
93.81,11.3636
94.21,8.52273
94.61,8.52273
95.01,8.52273
95.41,5.68182
95.81,2.84091
96.21,5.68182
96.61,5.68182
97.01,2.84091
97.41,11.3636
97.81,0
98.21,2.84091
98.61,11.3636
99.01,2.84091
99.41,5.68182
99.81,5.68182
100.21,5.68182
100.61,0
101.01,8.52273
101.41,8.52273
101.81,5.68182
102.21,8.52273
102.61,0
103.01,2.84091
103.41,17.0455
103.81,31.25
104.21,94812.5
104.61,28.4091
105.01,17.0455
105.41,2.84091
105.81,11.3636
106.21,2.84091
106.61,5.68182
107.01,0
107.41,0
107.81,2.84091
108.21,5.68182
108.61,5.68182
109.01,2.84091
109.41,2.84091
109.81,5.68182
110.21,5.68182
110.61,5.68182
111.01,2.84091
111.41,0
111.81,5.68182
112.21,11.3636
112.61,2.84091
113.01,5.68182
113.41,2.84091
113.81,2.84091
114.21,0
114.61,2.84091
115.01,0
115.41,0
115.81,2.84091
116.21,2.84091
116.61,2.84091
117.01,5.68182
117.41,5.68182
117.81,0
118.21,5.68182
118.61,5.68182
119.01,5.68182
119.41,11.3636
119.81,5.68182
119.99,5.68182